Data from flaky brown thing_Subt2__0__15-46-38-244.txt Node

Date: Mon Apr 05 15:46:38 EDT 2021
User: ajo5182
Spectrometer: USB2E133
Scans to average: 1
Trigger mode: 1
Integration Time (sec): 1.000000E-2
Electric dark correction enabled: true
Boxcar width: 0
XAxis mode: Wavelengths
Number of Pixels in Spectrum: 2048
>>>>>Begin Spectral Data<<<<<
175.383	2
175.57	-1
175.756	-3
175.942	-3
176.128	3
176.315	5
176.501	-1
176.687	1
176.873	1
177.059	-2
177.245	-3
177.431	-2
177.617	-3
177.803	-4
177.989	1
178.175	4
178.361	2
178.547	3
178.733	3
178.919	-3
179.105	4
179.291	1
179.477	3
179.663	1
179.848	4
180.034	1
180.22	1
180.406	-1
180.591	-4
180.777	0
180.963	0
181.148	-2
181.334	0
181.52	5
181.705	2
181.891	0
182.076	-4
182.262	2
182.448	3
182.633	5
182.819	-2
183.004	2
183.189	2
183.375	4
183.56	5
183.746	-6
183.931	-3
184.116	-2
184.302	-3
184.487	4
184.672	-2
184.857	-2
185.043	-5
185.228	-4
185.413	-1
185.598	3
185.783	-8
185.969	-1
186.154	1
186.339	4
186.524	-1
186.709	-4
186.894	2
187.079	-2
187.264	1
187.449	1
187.634	-1
187.819	0
188.004	0
188.189	-2
188.374	-2
188.558	0
188.743	0
188.928	-3
189.113	4
189.298	-6
189.482	-1
189.667	2
189.852	-1
190.037	-1
190.221	-2
190.406	-1
190.591	0
190.775	-2
190.96	0
191.144	-2
191.329	2
191.513	3
191.698	3
191.883	-4
192.067	-7
192.251	1
192.436	5
192.62	-1
192.805	-3
192.989	2
193.173	1
193.358	5
193.542	-6
193.726	-4
193.911	-5
194.095	2
194.279	1
194.463	1
194.648	-2
194.832	1
195.016	0
195.2	0
195.384	0
195.568	8
195.752	0
195.936	4
196.12	6
196.304	3
196.488	1
196.672	-3
196.856	5
197.04	10
197.224	5
197.408	-4
197.592	1
197.776	1
197.96	6
198.143	-1
198.327	5
198.511	-1
198.695	5
198.878	-1
199.062	3
199.246	3
199.43	2
199.613	-4
199.797	-1
199.98	-2
200.164	1
200.348	1
200.531	-1
200.715	1
200.898	7
201.082	2
201.265	-1
201.449	-7
201.632	-5
201.815	-4
201.999	2
202.182	0
202.365	0
202.549	2
202.732	-3
202.915	3
203.099	-2
203.282	5
203.465	1
203.648	1
203.832	0
204.015	0
204.198	-6
204.381	-2
204.564	-6
204.747	-1
204.93	5
205.113	6
205.296	5
205.479	-4
205.662	2
205.845	2
206.028	2
206.211	2
206.394	-4
206.577	-3
206.76	2
206.943	8
207.125	5
207.308	0
207.491	3
207.674	-3
207.857	3
208.039	9
208.222	6
208.405	-1
208.587	2
208.77	-2
208.953	2
209.135	0
209.318	5
209.5	6
209.683	7
209.865	5
210.048	9
210.23	1
210.413	3
210.595	-2
210.778	-4
210.96	1
211.142	7
211.325	6
211.507	5
211.69	13
211.872	3
212.054	9
212.236	10
212.419	13
212.601	9
212.783	3
212.965	4
213.147	1
213.329	10
213.512	7
213.694	8
213.876	10
214.058	6
214.24	13
214.422	10
214.604	9
214.786	11
214.968	9
215.15	14
215.332	14
215.514	13
215.695	14
215.877	10
216.059	4
216.241	7
216.423	7
216.605	9
216.786	10
216.968	10
217.15	15
217.331	15
217.513	19
217.695	15
217.876	15
218.058	10
218.24	18
218.421	14
218.603	16
218.784	15
218.966	16
219.147	14
219.329	13
219.51	18
219.692	10
219.873	17
220.054	14
220.236	19
220.417	21
220.599	19
220.78	21
220.961	21
221.142	14
221.324	24
221.505	32
221.686	37
221.867	24
222.048	26
222.23	24
222.411	20
222.592	25
222.773	22
222.954	20
223.135	23
223.316	23
223.497	23
223.678	28
223.859	28
224.04	28
224.221	27
224.402	29
224.583	22
224.764	25
224.944	31
225.125	31
225.306	30
225.487	34
225.668	30
225.848	28
226.029	31
226.21	38
226.391	36
226.571	27
226.752	41
226.933	36
227.113	36
227.294	36
227.474	34
227.655	39
227.835	38
228.016	38
228.196	41
228.377	42
228.557	45
228.738	53
228.918	53
229.098	57
229.279	72
229.459	82
229.64	81
229.82	72
230	67
230.18	59
230.361	48
230.541	59
230.721	54
230.901	57
231.081	53
231.262	51
231.442	50
231.622	57
231.802	54
231.982	50
232.162	56
232.342	53
232.522	55
232.702	53
232.882	61
233.062	66
233.242	64
233.422	62
233.602	62
233.781	65
233.961	67
234.141	66
234.321	70
234.501	75
234.68	75
234.86	76
235.04	64
235.22	71
235.399	65
235.579	70
235.759	72
235.938	73
236.118	81
236.297	81
236.477	68
236.657	73
236.836	69
237.016	77
237.195	85
237.374	86
237.554	86
237.733	81
237.913	98
238.092	93
238.271	87
238.451	97
238.63	86
238.809	77
238.989	85
239.168	87
239.347	82
239.526	103
239.706	94
239.885	89
240.064	102
240.243	94
240.422	101
240.601	99
240.78	96
240.959	88
241.138	98
241.318	92
241.497	91
241.675	89
241.854	89
242.033	89
242.212	85
242.391	95
242.57	99
242.749	94
242.928	90
243.107	96
243.285	104
243.464	98
243.643	104
243.822	113
244	100
244.179	104
244.358	102
244.536	104
244.715	106
244.894	104
245.072	91
245.251	103
245.429	100
245.608	102
245.786	101
245.965	103
246.143	99
246.322	111
246.5	111
246.679	109
246.857	95
247.035	100
247.214	109
247.392	107
247.57	115
247.749	146
247.927	171
248.105	171
248.283	150
248.462	143
248.64	121
248.818	136
248.996	118
249.174	130
249.352	125
249.53	132
249.709	131
249.887	115
250.065	121
250.243	119
250.421	130
250.599	140
250.777	146
250.954	159
251.132	156
251.31	165
251.488	184
251.666	177
251.844	167
252.022	167
252.199	153
252.377	155
252.555	158
252.733	164
252.91	152
253.088	154
253.266	134
253.443	138
253.621	147
253.799	147
253.976	131
254.154	131
254.331	132
254.509	129
254.686	122
254.864	114
255.041	127
255.219	124
255.396	120
255.574	111
255.751	114
255.928	120
256.106	114
256.283	119
256.46	119
256.638	127
256.815	125
256.992	114
257.169	116
257.347	118
257.524	129
257.701	111
257.878	121
258.055	106
258.232	112
258.409	113
258.586	117
258.763	118
258.94	116
259.117	123
259.294	119
259.471	119
259.648	124
259.825	136
260.002	164
260.179	138
260.356	134
260.533	135
260.71	130
260.886	132
261.063	133
261.24	136
261.417	134
261.593	132
261.77	114
261.947	116
262.123	116
262.3	125
262.477	123
262.653	128
262.83	135
263.006	137
263.183	141
263.359	130
263.536	120
263.712	121
263.889	119
264.065	110
264.242	107
264.418	117
264.595	116
264.771	115
264.947	110
265.124	123
265.3	120
265.476	124
265.652	123
265.829	123
266.005	114
266.181	121
266.357	122
266.533	122
266.709	117
266.886	109
267.062	122
267.238	108
267.414	115
267.59	113
267.766	116
267.942	118
268.118	115
268.294	121
268.47	108
268.646	126
268.822	111
268.997	117
269.173	122
269.349	116
269.525	115
269.701	127
269.876	125
270.052	122
270.228	118
270.404	114
270.579	118
270.755	128
270.931	117
271.106	136
271.282	113
271.458	128
271.633	134
271.809	133
271.984	119
272.16	123
272.335	131
272.511	124
272.686	125
272.862	127
273.037	138
273.212	130
273.388	135
273.563	133
273.738	143
273.914	147
274.089	138
274.264	152
274.44	171
274.615	163
274.79	171
274.965	172
275.14	173
275.315	181
275.491	176
275.666	162
275.841	170
276.016	175
276.191	160
276.366	174
276.541	180
276.716	174
276.891	173
277.066	194
277.241	201
277.416	232
277.591	257
277.765	310
277.94	375
278.115	420
278.29	441
278.465	425
278.639	466
278.814	546
278.989	671
279.164	910
279.338	1307
279.513	1703
279.688	1910
279.862	2026
280.037	1979
280.211	2003
280.386	1880
280.561	1602
280.735	1254
280.91	990
281.084	757
281.259	583
281.433	458
281.607	410
281.782	361
281.956	324
282.131	284
282.305	280
282.479	253
282.654	232
282.828	223
283.002	225
283.176	218
283.351	230
283.525	178
283.699	197
283.873	193
284.047	193
284.221	201
284.395	190
284.57	201
284.744	214
284.918	262
285.092	354
285.266	444
285.44	471
285.614	410
285.788	337
285.961	322
286.135	238
286.309	215
286.483	179
286.657	174
286.831	164
287.005	158
287.178	150
287.352	143
287.526	142
287.7	153
287.873	153
288.047	156
288.221	169
288.394	164
288.568	168
288.741	150
288.915	148
289.089	146
289.262	128
289.436	128
289.609	131
289.783	128
289.956	136
290.129	132
290.303	123
290.476	129
290.65	129
290.823	116
290.996	118
291.17	125
291.343	119
291.516	128
291.689	126
291.863	119
292.036	134
292.209	131
292.382	125
292.555	137
292.729	142
292.902	153
293.075	157
293.248	164
293.421	186
293.594	192
293.767	200
293.94	223
294.113	217
294.286	180
294.459	185
294.632	167
294.805	158
294.978	146
295.15	147
295.323	132
295.496	124
295.669	128
295.842	141
296.014	113
296.187	126
296.36	119
296.532	119
296.705	120
296.878	110
297.05	117
297.223	121
297.396	116
297.568	118
297.741	113
297.913	114
298.086	127
298.258	122
298.431	116
298.603	115
298.776	112
298.948	118
299.12	125
299.293	114
299.465	109
299.637	121
299.81	122
299.982	124
300.154	129
300.327	118
300.499	128
300.671	124
300.843	120
301.015	118
301.187	115
301.36	135
301.532	120
301.704	126
301.876	119
302.048	124
302.22	120
302.392	117
302.564	115
302.736	117
302.908	112
303.08	118
303.252	122
303.424	116
303.595	112
303.767	116
303.939	105
304.111	117
304.283	112
304.454	108
304.626	116
304.798	114
304.97	112
305.141	114
305.313	114
305.485	116
305.656	116
305.828	119
305.999	114
306.171	129
306.343	116
306.514	111
306.686	107
306.857	113
307.029	119
307.2	119
307.371	118
307.543	125
307.714	125
307.886	126
308.057	131
308.228	137
308.399	162
308.571	141
308.742	137
308.913	141
309.084	151
309.256	169
309.427	161
309.598	170
309.769	161
309.94	153
310.111	146
310.282	137
310.454	135
310.625	137
310.796	141
310.967	118
311.138	131
311.309	120
311.479	124
311.65	122
311.821	117
311.992	129
312.163	128
312.334	120
312.505	128
312.675	127
312.846	123
313.017	125
313.188	127
313.358	132
313.529	128
313.7	123
313.87	132
314.041	132
314.212	143
314.382	127
314.553	130
314.723	137
314.894	151
315.065	152
315.235	163
315.405	168
315.576	195
315.746	257
315.917	320
316.087	336
316.258	357
316.428	335
316.598	318
316.769	304
316.939	290
317.109	257
317.279	270
317.45	267
317.62	317
317.79	367
317.96	463
318.13	539
318.3	554
318.471	507
318.641	472
318.811	432
318.981	384
319.151	350
319.321	316
319.491	276
319.661	258
319.831	238
320.001	227
320.171	210
320.34	194
320.51	194
320.68	194
320.85	178
321.02	183
321.19	170
321.359	162
321.529	173
321.699	156
321.869	159
322.038	162
322.208	162
322.378	156
322.547	154
322.717	157
322.886	154
323.056	149
323.226	152
323.395	157
323.565	168
323.734	164
323.904	150
324.073	154
324.242	161
324.412	154
324.581	151
324.751	152
324.92	146
325.089	159
325.259	127
325.428	143
325.597	147
325.766	137
325.936	146
326.105	147
326.274	142
326.443	140
326.612	135
326.781	139
326.951	136
327.12	149
327.289	156
327.458	139
327.627	133
327.796	151
327.965	139
328.134	143
328.303	141
328.472	159
328.64	149
328.809	142
328.978	151
329.147	144
329.316	145
329.485	141
329.653	149
329.822	143
329.991	144
330.16	148
330.328	142
330.497	139
330.666	149
330.834	143
331.003	143
331.172	154
331.34	150
331.509	153
331.677	153
331.846	157
332.014	135
332.183	158
332.351	147
332.52	156
332.688	166
332.857	153
333.025	165
333.193	159
333.362	164
333.53	161
333.698	171
333.866	171
334.035	174
334.203	194
334.371	182
334.539	170
334.708	194
334.876	180
335.044	201
335.212	183
335.38	176
335.548	177
335.716	170
335.884	195
336.052	166
336.22	198
336.388	180
336.556	181
336.724	169
336.892	171
337.06	169
337.228	171
337.396	181
337.564	168
337.731	164
337.899	167
338.067	168
338.235	175
338.402	160
338.57	173
338.738	161
338.906	161
339.073	166
339.241	158
339.408	155
339.576	157
339.744	156
339.911	168
340.079	161
340.246	157
340.414	161
340.581	162
340.749	155
340.916	160
341.083	150
341.251	152
341.418	156
341.586	143
341.753	160
341.92	150
342.088	154
342.255	158
342.422	154
342.589	158
342.756	159
342.924	155
343.091	153
343.258	147
343.425	170
343.592	153
343.759	162
343.926	163
344.093	175
344.26	172
344.427	160
344.594	168
344.761	175
344.928	166
345.095	166
345.262	156
345.429	163
345.596	176
345.763	157
345.93	158
346.096	160
346.263	162
346.43	177
346.597	169
346.764	153
346.93	150
347.097	156
347.264	156
347.43	161
347.597	168
347.763	161
347.93	166
348.097	173
348.263	148
348.43	160
348.596	155
348.763	155
348.929	157
349.096	160
349.262	153
349.428	158
349.595	155
349.761	143
349.928	145
350.094	146
350.26	162
350.426	157
350.593	158
350.759	154
350.925	154
351.091	156
351.258	158
351.424	156
351.59	161
351.756	143
351.922	141
352.088	142
352.254	155
352.42	145
352.586	151
352.752	143
352.918	151
353.084	146
353.25	142
353.416	143
353.582	142
353.748	135
353.914	150
354.08	145
354.245	140
354.411	141
354.577	139
354.743	145
354.909	142
355.074	142
355.24	142
355.406	151
355.571	148
355.737	137
355.903	148
356.068	155
356.234	153
356.399	158
356.565	143
356.73	148
356.896	151
357.061	158
357.227	161
357.392	154
357.558	146
357.723	163
357.888	152
358.054	159
358.219	173
358.384	176
358.55	189
358.715	162
358.88	166
359.045	170
359.211	156
359.376	168
359.541	162
359.706	155
359.871	153
360.036	160
360.202	158
360.367	150
360.532	164
360.697	154
360.862	169
361.027	173
361.192	166
361.357	166
361.522	181
361.687	162
361.851	160
362.016	169
362.181	172
362.346	171
362.511	171
362.676	178
362.84	178
363.005	178
363.17	189
363.335	187
363.499	190
363.664	171
363.829	171
363.993	178
364.158	178
364.322	191
364.487	172
364.652	176
364.816	163
364.981	185
365.145	167
365.31	167
365.474	162
365.638	162
365.803	169
365.967	160
366.132	160
366.296	164
366.46	163
366.625	163
366.789	166
366.953	144
367.117	155
367.282	161
367.446	159
367.61	166
367.774	167
367.938	177
368.103	162
368.267	165
368.431	179
368.595	168
368.759	178
368.923	168
369.087	174
369.251	164
369.415	171
369.579	167
369.743	163
369.907	180
370.07	168
370.234	185
370.398	210
370.562	249
370.726	240
370.89	267
371.053	251
371.217	245
371.381	235
371.545	219
371.708	227
371.872	225
372.036	226
372.199	201
372.363	211
372.526	212
372.69	207
372.854	218
373.017	228
373.181	221
373.344	241
373.507	286
373.671	339
373.834	384
373.998	376
374.161	359
374.324	365
374.488	341
374.651	321
374.814	302
374.978	316
375.141	264
375.304	273
375.467	257
375.631	239
375.794	256
375.957	245
376.12	240
376.283	248
376.446	239
376.609	234
376.773	239
376.936	227
377.099	225
377.262	223
377.425	232
377.588	216
377.75	216
377.913	223
378.076	225
378.239	232
378.402	221
378.565	213
378.728	231
378.891	237
379.053	227
379.216	247
379.379	224
379.542	241
379.704	236
379.867	239
380.03	243
380.192	234
380.355	259
380.517	250
380.68	260
380.843	262
381.005	257
381.168	264
381.33	278
381.493	292
381.655	297
381.817	295
381.98	321
382.142	335
382.305	355
382.467	376
382.629	411
382.792	468
382.954	518
383.116	589
383.278	614
383.441	636
383.603	648
383.765	707
383.927	696
384.089	640
384.252	578
384.414	520
384.576	466
384.738	446
384.9	415
385.062	385
385.224	374
385.386	347
385.548	351
385.71	347
385.872	347
386.034	354
386.196	340
386.358	323
386.519	333
386.681	330
386.843	307
387.005	321
387.167	315
387.328	309
387.49	311
387.652	303
387.813	300
387.975	320
388.137	302
388.298	303
388.46	321
388.622	302
388.783	314
388.945	308
389.106	315
389.268	315
389.429	310
389.591	315
389.752	296
389.914	323
390.075	327
390.236	330
390.398	334
390.559	344
390.72	373
390.882	375
391.043	384
391.204	387
391.366	402
391.527	427
391.688	451
391.849	468
392.01	515
392.172	552
392.333	598
392.494	729
392.655	828
392.816	1020
392.977	1318
393.138	1912
393.299	2445
393.46	2612
393.621	2402
393.782	2110
393.943	1790
394.104	1565
394.265	1368
394.425	1198
394.586	1028
394.747	850
394.908	739
395.069	660
395.23	591
395.39	575
395.551	561
395.712	557
395.872	596
396.033	685
396.194	767
396.354	912
396.515	1147
396.675	1607
396.836	2044
396.997	2013
397.157	1782
397.318	1520
397.478	1330
397.639	1134
397.799	958
397.959	854
398.12	712
398.28	623
398.441	540
398.601	479
398.761	457
398.922	415
399.082	412
399.242	406
399.402	402
399.563	399
399.723	402
399.883	390
400.043	396
400.203	400
400.363	362
400.523	373
400.684	349
400.844	347
401.004	331
401.164	333
401.324	327
401.484	318
401.644	315
401.804	312
401.963	315
402.123	304
402.283	300
402.443	305
402.603	312
402.763	310
402.923	304
403.082	302
403.242	306
403.402	301
403.562	298
403.721	290
403.881	293
404.041	292
404.2	300
404.36	293
404.519	292
404.679	298
404.839	306
404.998	290
405.158	289
405.317	285
405.477	292
405.636	276
405.795	294
405.955	295
406.114	301
406.274	283
406.433	293
406.592	284
406.752	299
406.911	282
407.07	296
407.229	319
407.389	306
407.548	296
407.707	319
407.866	316
408.025	318
408.185	310
408.344	305
408.503	305
408.662	310
408.821	308
408.98	305
409.139	302
409.298	294
409.457	287
409.616	278
409.775	295
409.934	285
410.093	298
410.251	302
410.41	291
410.569	289
410.728	294
410.887	282
411.046	286
411.204	297
411.363	305
411.522	284
411.68	296
411.839	294
411.998	283
412.156	283
412.315	299
412.474	299
412.632	294
412.791	296
412.949	297
413.108	294
413.266	311
413.425	296
413.583	294
413.742	305
413.9	294
414.058	304
414.217	294
414.375	314
414.533	309
414.692	307
414.85	311
415.008	302
415.167	308
415.325	293
415.483	317
415.641	305
415.799	301
415.957	307
416.116	314
416.274	313
416.432	315
416.59	324
416.748	313
416.906	307
417.064	319
417.222	322
417.38	309
417.538	315
417.696	324
417.854	319
418.012	318
418.169	317
418.327	316
418.485	326
418.643	327
418.801	334
418.958	334
419.116	325
419.274	328
419.432	350
419.589	325
419.747	334
419.905	343
420.062	326
420.22	337
420.377	340
420.535	339
420.692	332
420.85	342
421.007	343
421.165	355
421.322	358
421.48	367
421.637	358
421.795	374
421.952	380
422.109	402
422.267	437
422.424	509
422.581	660
422.739	865
422.896	927
423.053	822
423.21	742
423.368	662
423.525	617
423.682	575
423.839	514
423.996	477
424.153	431
424.31	406
424.467	376
424.624	359
424.781	360
424.938	333
425.095	345
425.252	340
425.409	338
425.566	316
425.723	308
425.88	305
426.037	307
426.194	310
426.351	308
426.507	312
426.664	317
426.821	313
426.978	306
427.134	305
427.291	302
427.448	286
427.604	293
427.761	301
427.918	306
428.074	306
428.231	338
428.387	361
428.544	367
428.7	364
428.857	358
429.013	375
429.17	371
429.326	360
429.483	341
429.639	347
429.795	345
429.952	370
430.108	400
430.264	481
430.421	475
430.577	459
430.733	428
430.889	428
431.046	419
431.202	378
431.358	345
431.514	329
431.67	330
431.826	352
431.983	339
432.139	340
432.295	303
432.451	296
432.607	294
432.763	287
432.919	274
433.075	271
433.231	254
433.386	260
433.542	252
433.698	260
433.854	254
434.01	244
434.166	245
434.321	257
434.477	252
434.633	242
434.789	250
434.944	252
435.1	270
435.256	264
435.411	256
435.567	251
435.723	265
435.878	238
436.034	231
436.189	240
436.345	224
436.5	233
436.656	231
436.811	229
436.967	241
437.122	218
437.278	247
437.433	223
437.588	218
437.744	235
437.899	222
438.054	226
438.21	231
438.365	226
438.52	232
438.675	223
438.831	228
438.986	221
439.141	222
439.296	216
439.451	212
439.606	220
439.761	220
439.916	209
440.072	210
440.227	218
440.382	216
440.537	222
440.692	219
440.846	218
441.001	212
441.156	206
441.311	222
441.466	224
441.621	207
441.776	237
441.93	229
442.085	228
442.24	234
442.395	232
442.549	253
442.704	277
442.859	279
443.014	274
443.168	263
443.323	256
443.477	295
443.632	321
443.787	347
443.941	334
444.096	308
444.25	301
444.405	299
444.559	273
444.713	260
444.868	265
445.022	266
445.177	263
445.331	281
445.485	296
445.64	361
445.794	388
445.948	357
446.103	332
446.257	282
446.411	296
446.565	254
446.719	268
446.874	250
447.028	235
447.182	230
447.336	236
447.49	215
447.644	231
447.798	218
447.952	231
448.106	226
448.26	224
448.414	228
448.568	215
448.722	213
448.876	233
449.03	204
449.183	216
449.337	191
449.491	197
449.645	188
449.799	194
449.952	175
450.106	195
450.26	177
450.414	183
450.567	182
450.721	177
450.875	165
451.028	187
451.182	154
451.335	161
451.489	172
451.642	162
451.796	166
451.949	163
452.103	157
452.256	162
452.41	171
452.563	161
452.717	153
452.87	154
453.023	159
453.177	159
453.33	161
453.483	164
453.637	153
453.79	167
453.943	155
454.096	152
454.249	149
454.403	169
454.556	156
454.709	155
454.862	159
455.015	141
455.168	151
455.321	157
455.474	161
455.627	148
455.78	161
455.933	158
456.086	152
456.239	144
456.392	152
456.545	154
456.698	151
456.851	147
457.003	155
457.156	148
457.309	145
457.462	147
457.614	155
457.767	163
457.92	164
458.073	147
458.225	177
458.378	164
458.531	180
458.683	188
458.836	185
458.988	186
459.141	193
459.293	188
459.446	183
459.598	189
459.751	174
459.903	185
460.056	189
460.208	181
460.36	181
460.513	190
460.665	201
460.818	192
460.97	188
461.122	200
461.274	195
461.427	196
461.579	202
461.731	199
461.883	193
462.035	202
462.188	209
462.34	201
462.492	223
462.644	200
462.796	206
462.948	222
463.1	205
463.252	210
463.404	231
463.556	229
463.708	228
463.86	218
464.012	225
464.164	218
464.315	224
464.467	224
464.619	232
464.771	225
464.923	220
465.074	219
465.226	209
465.378	215
465.53	202
465.681	196
465.833	206
465.985	209
466.136	199
466.288	187
466.439	200
466.591	184
466.742	185
466.894	187
467.045	182
467.197	195
467.348	193
467.5	180
467.651	183
467.803	167
467.954	190
468.105	174
468.257	177
468.408	183
468.559	181
468.711	182
468.862	174
469.013	178
469.164	173
469.316	171
469.467	181
469.618	172
469.769	177
469.92	182
470.071	169
470.222	176
470.373	174
470.524	178
470.675	173
470.826	173
470.977	187
471.128	175
471.279	178
471.43	182
471.581	173
471.732	183
471.883	181
472.034	171
472.184	166
472.335	180
472.486	169
472.637	163
472.787	178
472.938	171
473.089	158
473.24	166
473.39	159
473.541	166
473.691	157
473.842	166
473.993	153
474.143	154
474.294	171
474.444	154
474.595	160
474.745	147
474.896	157
475.046	171
475.196	144
475.347	159
475.497	147
475.648	142
475.798	151
475.948	155
476.099	158
476.249	148
476.399	141
476.549	159
476.699	150
476.85	149
477	147
477.15	159
477.3	142
477.45	139
477.6	153
477.75	144
477.9	153
478.05	163
478.2	144
478.35	146
478.5	155
478.65	139
478.8	142
478.95	135
479.1	151
479.25	142
479.4	140
479.55	144
479.699	145
479.849	146
479.999	147
480.149	136
480.298	144
480.448	146
480.598	150
480.747	139
480.897	150
481.047	134
481.196	141
481.346	144
481.496	145
481.645	141
481.795	130
481.944	133
482.094	139
482.243	129
482.392	134
482.542	126
482.691	120
482.841	106
482.99	125
483.139	121
483.289	132
483.438	117
483.587	108
483.737	121
483.886	125
484.035	120
484.184	119
484.333	115
484.483	104
484.632	110
484.781	120
484.93	118
485.079	117
485.228	100
485.377	111
485.526	106
485.675	111
485.824	106
485.973	115
486.122	104
486.271	99
486.42	100
486.569	106
486.718	104
486.866	103
487.015	106
487.164	96
487.313	107
487.462	98
487.61	99
487.759	101
487.908	97
488.056	102
488.205	93
488.354	97
488.502	100
488.651	98
488.799	94
488.948	107
489.097	95
489.245	98
489.394	100
489.542	99
489.691	92
489.839	93
489.987	94
490.136	82
490.284	81
490.433	88
490.581	84
490.729	92
490.877	85
491.026	82
491.174	86
491.322	83
491.47	83
491.619	84
491.767	82
491.915	75
492.063	84
492.211	85
492.359	78
492.507	80
492.655	77
492.803	81
492.951	77
493.099	77
493.247	80
493.395	73
493.543	74
493.691	78
493.839	72
493.987	71
494.135	73
494.283	80
494.43	76
494.578	74
494.726	72
494.874	73
495.022	73
495.169	67
495.317	78
495.465	71
495.612	74
495.76	74
495.908	75
496.055	65
496.203	68
496.35	71
496.498	70
496.645	77
496.793	75
496.94	68
497.088	73
497.235	70
497.383	75
497.53	67
497.677	67
497.825	66
497.972	65
498.119	66
498.267	70
498.414	70
498.561	70
498.708	70
498.855	73
499.003	71
499.15	82
499.297	72
499.444	73
499.591	76
499.738	80
499.885	74
500.032	79
500.179	77
500.326	80
500.473	79
500.62	84
500.767	83
500.914	88
501.061	95
501.208	86
501.355	90
501.502	97
501.649	98
501.795	102
501.942	107
502.089	94
502.236	93
502.382	96
502.529	86
502.676	97
502.822	97
502.969	101
503.116	82
503.262	92
503.409	77
503.555	81
503.702	79
503.849	73
503.995	68
504.142	66
504.288	62
504.434	62
504.581	63
504.727	60
504.874	61
505.02	60
505.166	60
505.313	60
505.459	57
505.605	59
505.752	62
505.898	59
506.044	57
506.19	55
506.336	62
506.483	56
506.629	50
506.775	53
506.921	50
507.067	53
507.213	37
507.359	36
507.505	44
507.651	44
507.797	48
507.943	43
508.089	42
508.235	40
508.381	38
508.527	39
508.672	34
508.818	40
508.964	44
509.11	42
509.256	35
509.401	30
509.547	36
509.693	29
509.839	33
509.984	37
510.13	39
510.276	35
510.421	38
510.567	36
510.712	34
510.858	27
511.003	28
511.149	29
511.294	28
511.44	31
511.585	30
511.731	23
511.876	23
512.022	30
512.167	24
512.312	25
512.458	33
512.603	18
512.748	23
512.894	28
513.039	23
513.184	32
513.329	26
513.474	34
513.62	30
513.765	17
513.91	19
514.055	22
514.2	18
514.345	25
514.49	24
