#Acq. time (s)=	120
#Accumulations=	3
#Range=	Off
#Autofocus=	Off
#Macrospot=	Off
#AutoExposure=	Off
#Spike filter=	Multiple accum.
#Delay time (s)=	0
#Binning=	1
#Readout mode=	Signal
#DeNoise=	Off
#ICS correction=	Off
#Dark correction=	Off
#Inst. Process=	Off
#Detector temperature (°C)=	-75.13
#Instrument=	LabRAM HR Evol
#Detector=	Synapse
#Objective=	X40_UVB
#Grating=	1800 (500nm)
#ND Filter=	100%
#Laser (nm)=	229 
#Spectro (cm-¹)=	2350.07
#Hole=	150.001
#Range=	UV
#StageXY=	Marzhauser
#StageZ=	Marzhauser
#X (µm)=	0
#Y (µm)=	0
#Z (µm)=	0
#Full time(mm:ss)=	6:02
#Project=	2021-4-15_Andrew_fertilizer_DUV
#Sample=	
#Site=	
#Title=	_14_37_29_2021_04_15_water-cp 10-1_3_120 s_229 nm_1800 (500nm)_X40_UVB_150_100%
#Remark=	
#Date=	15.04.2021 14:39
#Acquired=	15.04.2021 14:39:31
727.454	35.5
729.109	29
730.763	52.5
732.417	57.5
734.071	53
735.725	38
737.376	48.5
739.029	48.5
740.683	45
742.336	49
743.989	45
745.642	64
747.295	59.5
748.948	58
750.6	52
752.253	62
753.905	59
755.558	54.5
757.21	77.5
758.862	68
760.511	72.5
762.163	66
763.814	65.5
765.466	63.5
767.117	69
768.768	69
770.42	66.5
772.071	74.5
773.721	73.5
775.372	62.5
777.02	74.5
778.671	70.5
780.321	67
781.971	64.5
783.621	77
785.271	67.5
786.921	69.5
788.571	72
790.218	58.5
791.867	68.5
793.517	73
795.166	73
796.815	66
798.464	65.5
800.113	58
801.759	79
803.407	77
805.056	74
806.704	71.5
808.352	72
810	81.5
811.646	79.5
813.293	87
814.941	74
816.589	70
818.236	71
819.881	83.5
821.528	76.5
823.175	85.5
824.822	84.5
826.469	67
828.113	76
829.759	69
831.406	82.5
833.052	82
834.698	80.5
836.341	77
837.987	82
839.633	74.5
841.279	76.5
842.924	80.5
844.567	86
846.212	77
847.857	78
849.502	86
851.145	85
852.789	75
854.434	96
856.079	75.5
857.72	71
859.365	86
861.009	77.5
862.653	77.5
864.294	84.5
865.938	90
867.581	87.5
869.225	86
870.865	81
872.509	77.5
874.152	93.5
875.792	82.5
877.435	77.5
879.078	85
880.72	82
882.36	92
884.003	81
885.645	73.5
887.284	82.5
888.926	73
890.568	83
892.207	72
893.849	80
895.49	75
897.129	73
898.77	70
900.411	71.5
902.05	79.5
903.69	87
905.331	81
906.969	68.5
908.61	68.5
910.25	72
911.887	67.5
913.528	78.5
915.168	72.5
916.805	77.5
918.444	62.5
920.084	75
921.721	74
923.36	64.5
924.999	72.5
926.636	71
928.275	80
929.911	66.5
931.55	72.5
933.188	70.5
934.824	79
936.462	75.5
938.098	68
939.736	71
941.374	70
943.009	74.5
944.647	67
946.282	81.5
947.919	71.5
949.556	67.5
951.191	70.5
952.828	63
954.462	70.5
956.099	60
957.736	67.5
959.37	59
961.006	69
962.64	74.5
964.276	69
965.909	71.5
967.545	74
969.178	71
970.814	72
972.45	73
974.083	69.5
975.718	68.5
977.35	71.5
978.985	62.5
980.618	76
982.253	68
983.884	56
985.519	62
987.151	71
988.785	74
990.417	69.5
992.051	76
993.682	58.5
995.316	64
996.947	90
998.58	94
1000.21	78.5
1001.84	81
1003.47	82
1005.11	82
1006.74	76.5
1008.37	127
1010	80
1011.63	88.5
1013.26	71.5
1014.9	77
1016.53	82.5
1018.16	70.5
1019.79	88.5
1021.42	67
1023.05	73
1024.68	72.5
1026.31	69.5
1027.94	81
1029.57	60.5
1031.2	69
1032.83	64
1034.46	65
1036.09	70
1037.71	74
1039.34	68.5
1040.97	67
1042.6	74.5
1044.23	67.5
1045.86	72.5
1047.49	80.5
1049.11	71
1050.74	70.5
1052.37	73.5
1054	72
1055.63	76
1057.25	68.5
1058.88	70.5
1060.51	65.5
1062.13	74.5
1063.76	74
1065.39	76.5
1067.01	89
1068.64	77
1070.27	76.5
1071.89	69
1073.52	79
1075.14	77
1076.77	67
1078.4	68
1080.02	72
1081.65	81
1083.27	78
1084.9	73
1086.52	78.5
1088.15	83.5
1089.78	84.5
1091.4	76.5
1093.02	89
1094.65	84.5
1096.27	80
1097.9	80.5
1099.52	80
1101.14	82
1102.77	81.5
1104.39	85
1106.02	77
1107.64	89.5
1109.26	85
1110.89	90
1112.51	78.5
1114.13	99
1115.75	78.5
1117.38	79.5
1119	90.5
1120.62	79.5
1122.24	86
1123.86	82.5
1125.49	99
1127.11	96.5
1128.73	81
1130.35	82.5
1131.97	95
1133.6	104.5
1135.22	94.5
1136.84	101
1138.46	97.5
1140.08	90.5
1141.7	98
1143.32	102.5
1144.94	94
1146.56	104
1148.18	100.5
1149.8	97.5
1151.42	97.5
1153.04	110
1154.66	102
1156.28	101.5
1157.9	134.5
1159.52	123.5
1161.14	110
1162.75	97.5
1164.37	109.5
1165.99	113.5
1167.61	123.5
1169.23	113.5
1170.85	115
1172.46	116
1174.08	123.5
1175.7	122.5
1177.32	132
1178.94	117.5
1180.55	132.5
1182.17	127.5
1183.79	111
1185.4	124
1187.02	120
1188.64	121.5
1190.26	128.5
1191.87	130.5
1193.49	129.5
1195.1	111
1196.72	115
1198.34	125.5
1199.95	118.5
1201.57	129
1203.18	128
1204.8	119.5
1206.41	137
1208.03	121.5
1209.65	138
1211.26	152.5
1212.88	135.5
1214.49	147
1216.1	116.5
1217.72	140
1219.33	128.5
1220.95	142.5
1222.56	141
1224.18	135
1225.79	140
1227.4	146
1229.02	149
1230.63	137
1232.24	145.5
1233.86	145.5
1235.47	137.5
1237.08	141.5
1238.69	142.5
1240.31	143
1241.92	133.5
1243.53	151
1245.14	142.5
1246.76	151
1248.37	146.5
1249.98	157
1251.59	169
1253.2	139
1254.81	162
1256.43	164
1258.04	159
1259.65	173
1261.26	165.5
1262.87	166.5
1264.48	157
1266.09	163.5
1267.7	164.5
1269.31	164
1270.92	165.5
1272.53	155
1274.14	166.5
1275.75	177.5
1277.36	171.5
1278.97	182
1280.58	172.5
1282.19	169.5
1283.8	170
1285.41	177.5
1287.01	186
1288.62	165
1290.23	186
1291.84	156.5
1293.45	158.5
1295.06	171
1296.67	180.5
1298.27	177.5
1299.88	178
1301.49	187.5
1303.1	158.5
1304.7	179.5
1306.31	165.5
1307.92	170.5
1309.53	163.5
1311.13	183
1312.74	172
1314.35	174
1315.95	163
1317.56	174
1319.16	181.5
1320.77	193.5
1322.38	170.5
1323.98	182
1325.59	182
1327.19	185.5
1328.8	185.5
1330.41	198.5
1332.01	198.5
1333.61	198
1335.22	172
1336.82	188.5
1338.43	184
1340.03	190.5
1341.64	214.5
1343.24	188
1344.85	197.5
1346.45	189
1348.05	194
1349.66	201.5
1351.26	207.5
1352.87	204.5
1354.47	174
1356.07	185.5
1357.68	205
1359.28	193.5
1360.88	198
1362.48	213.5
1364.09	195.5
1365.69	174
1367.29	192.5
1368.89	178
1370.49	175.5
1372.1	191
1373.7	183.5
1375.3	200.5
1376.9	189.5
1378.5	183.5
1380.1	193
1381.71	202
1383.31	190
1384.91	198.5
1386.51	218
1388.11	210
1389.71	207
1391.31	202
1392.91	206.5
1394.51	187
1396.11	189.5
1397.71	184
1399.31	190
1400.91	191.5
1402.51	193
1404.11	207.5
1405.71	175
1407.31	190.5
1408.9	193
1410.5	192
1412.1	178.5
1413.7	175
1415.3	187
1416.9	176
1418.5	197.5
1420.1	212
1421.69	193.5
1423.29	199.5
1424.89	184
1426.48	190
1428.08	190.5
1429.68	197.5
1431.28	185
1432.87	182.5
1434.47	188
1436.07	199.5
1437.66	185
1439.26	184.5
1440.86	191.5
1442.46	184
1444.05	200
1445.65	171.5
1447.24	173.5
1448.84	199.5
1450.43	185
1452.03	191
1453.62	180.5
1455.22	191.5
1456.82	184
1458.41	195
1460	177.5
1461.6	185
1463.19	196.5
1464.79	190
1466.38	204
1467.98	184
1469.57	168
1471.17	180.5
1472.76	179
1474.35	172.5
1475.94	172
1477.54	187
1479.13	184.5
1480.72	190
1482.32	182
1483.91	193
1485.5	171
1487.1	184
1488.69	188.5
1490.28	198
1491.88	183
1493.47	195
1495.06	189
1496.65	184
1498.24	166.5
1499.83	181
1501.42	184.5
1503.02	174.5
1504.61	167.5
1506.2	173
1507.79	182
1509.38	172
1510.97	173.5
1512.56	177
1514.15	175.5
1515.74	172.5
1517.33	199.5
1518.92	194.5
1520.51	191
1522.1	196.5
1523.69	169
1525.28	168.5
1526.87	196
1528.46	180.5
1530.05	199
1531.64	196.5
1533.23	215.5
1534.82	203.5
1536.41	190
1537.99	205.5
1539.58	200
1541.17	224
1542.76	224
1544.35	238
1545.93	232
1547.52	239.5
1549.11	223.5
1550.7	251
1552.28	236.5
1553.87	240
1555.46	258
1557.05	244.5
1558.63	275.5
1560.22	249.5
1561.81	260.5
1563.39	275
1564.98	278
1566.56	287
1568.15	269.5
1569.74	273.5
1571.32	286.5
1572.91	313
1574.5	325
1576.08	325
1577.67	338.5
1579.25	341
1580.84	337
1582.42	350
1584.01	368.5
1585.59	350.5
1587.18	382
1588.76	396
1590.34	399
1591.93	407
1593.51	414
1595.1	450.5
1596.68	452.5
1598.26	465.5
1599.85	484.5
1601.43	508.5
1603.01	509
1604.6	496.5
1606.18	506.5
1607.76	501
1609.35	528
1610.93	509.5
1612.51	527
1614.09	494
1615.68	469.5
1617.26	507
1618.84	464
1620.42	442
1622.01	426.5
1623.59	383.5
1625.17	366.5
1626.75	359
1628.33	364.5
1629.91	363
1631.49	350.5
1633.07	333.5
1634.65	323.5
1636.24	346.5
1637.82	333.5
1639.39	292
1640.98	313
1642.56	308.5
1644.14	296.5
1645.72	300.5
1647.3	269
1648.87	304
1650.45	311.5
1652.03	283.5
1653.61	266
1655.19	283.5
1656.77	253.5
1658.35	266
1659.93	257.5
1661.51	273.5
1663.09	228.5
1664.66	229.5
1666.24	218
1667.82	239.5
1669.4	212.5
1670.98	209.5
1672.55	221
1674.13	210.5
1675.71	205
1677.29	202.5
1678.86	207
1680.44	200.5
1682.02	201
1683.59	206.5
1685.17	188.5
1686.75	174.5
1688.33	186
1689.9	186.5
1691.48	163
1693.05	164
1694.63	143
1696.21	155.5
1697.78	156.5
1699.36	176.5
1700.93	144
1702.51	159.5
1704.08	140
1705.66	146
1707.23	139.5
1708.81	138.5
1710.38	143.5
1711.96	129
1713.53	136.5
1715.1	152
1716.68	142
1718.25	136
1719.83	125
1721.4	118
1722.97	122.5
1724.55	124.5
1726.12	125.5
1727.69	117
1729.27	118
1730.84	111
1732.41	117
1733.99	117
1735.56	111
1737.13	108.5
1738.7	110.5
1740.28	115
1741.85	126.5
1743.42	103
1744.99	109
1746.56	109
1748.14	99
1749.71	117
1751.28	100.5
1752.85	112
1754.42	105
1755.99	101
1757.56	105.5
1759.14	99.5
1760.71	95.5
1762.28	88.5
1763.85	96
1765.42	105
1766.99	108
1768.56	99
1770.13	100.5
1771.7	82
1773.26	98.5
1774.83	100.5
1776.4	89
1777.97	94.5
1779.54	100
1781.11	90.5
1782.68	103.5
1784.25	87.5
1785.82	87
1787.38	83.5
1788.96	96.5
1790.52	97
1792.09	90
1793.66	79.5
1795.23	84
1796.8	89.5
1798.36	92
1799.93	98.5
1801.5	85
1803.07	97
1804.63	92
1806.2	80.5
1807.77	85.5
1809.33	86
1810.9	100
1812.47	92
1814.03	85.5
1815.6	75.5
1817.16	83
1818.73	85.5
1820.29	93.5
1821.86	93.5
1823.43	75.5
1824.99	95.5
1826.56	94
1828.12	101.5
1829.69	83
1831.25	89
1832.82	84.5
1834.38	93.5
1835.95	91.5
1837.51	90
1839.08	82
1840.64	80.5
1842.21	87.5
1843.77	84
1845.33	81.5
1846.9	88.5
1848.46	85
1850.02	85.5
1851.59	80
1853.15	89.5
1854.71	89.5
1856.28	98.5
1857.84	76
1859.4	87
1860.96	85
1862.53	81.5
1864.09	76
1865.65	80.5
1867.21	96
1868.78	79.5
1870.34	86
1871.9	98.5
1873.46	85.5
1875.02	84
1876.58	83
1878.14	96
1879.71	86
1881.26	86.5
1882.83	96
1884.39	84.5
1885.95	86.5
1887.51	93.5
1889.07	86.5
1890.63	82.5
1892.19	86
1893.75	88.5
1895.31	90
1896.87	93
1898.43	84.5
1899.99	85.5
1901.55	101.5
1903.11	85.5
1904.67	83.5
1906.22	92
1907.78	87
1909.34	79
1910.9	85
1912.46	96.5
1914.02	93
1915.58	85
1917.13	95.5
1918.69	89.5
1920.25	87.5
1921.81	94
1923.37	78
1924.92	89
1926.48	80
1928.04	91.5
1929.59	76.5
1931.15	86
1932.71	92
1934.26	109
1935.82	86
1937.38	102.5
1938.93	100.5
1940.49	95
1942.05	91.5
1943.6	93
1945.16	91
1946.71	92
1948.27	87
1949.82	97
1951.38	88.5
1952.94	92.5
1954.49	90.5
1956.05	84.5
1957.6	87.5
1959.15	95.5
1960.71	67.5
1962.27	80.5
1963.82	81.5
1965.37	89.5
1966.93	140
1968.48	114
1970.03	78
1971.59	83.5
1973.14	89.5
1974.7	91.5
1976.25	92
1977.8	86
1979.36	85
1980.91	91.5
1982.46	79.5
1984.01	88
1985.57	87.5
1987.12	89.5
1988.67	87
1990.22	93.5
1991.78	89
1993.33	91.5
1994.88	100.5
1996.43	91.5
1997.98	82.5
1999.53	89.5
2001.09	93.5
2002.64	90.5
2004.19	92.5
2005.74	90
2007.29	83.5
2008.84	90.5
2010.39	80
2011.94	95.5
2013.49	83.5
2015.04	88
2016.59	93
2018.14	106.5
2019.69	96.5
2021.24	116
2022.79	104.5
2024.34	85
2025.89	89.5
2027.44	104
2028.99	106
2030.54	88.5
2032.09	85.5
2033.64	96
2035.19	96
2036.73	81.5
2038.28	87
2039.83	86.5
2041.38	92.5
2042.93	80.5
2044.47	102
2046.02	96.5
2047.57	84.5
2049.12	88.5
2050.67	80.5
2052.21	79
2053.76	98.5
2055.31	86
2056.85	101.5
2058.4	91
2059.95	90.5
2061.49	77.5
2063.04	88
2064.59	80.5
2066.13	82
2067.68	90.5
2069.23	94.5
2070.77	80.5
2072.32	83.5
2073.86	85.5
2075.41	93.5
2076.95	75
2078.5	86.5
2080.04	87
2081.59	84
2083.13	85
2084.68	98
2086.22	103.5
2087.77	103.5
2089.31	90
2090.86	86.5
2092.4	93.5
2093.94	88.5
2095.49	96.5
2097.03	91.5
2098.57	94.5
2100.12	76.5
2101.66	95
2103.2	89.5
2104.75	93.5
2106.29	95
2107.83	93.5
2109.38	89
2110.92	90
2112.46	98.5
2114	86
2115.55	94
2117.09	93.5
2118.63	91.5
2120.17	94
2121.71	99
2123.26	92
2124.8	98
2126.34	102.5
2127.88	109
2129.42	92
2130.96	98
2132.5	75.5
2134.04	90.5
2135.58	79
2137.13	96.5
2138.67	91
2140.2	92.5
2141.75	92.5
2143.29	104.5
2144.82	92.5
2146.36	97.5
2147.91	95
2149.44	89
2150.98	96.5
2152.52	97
2154.06	100
2155.6	91.5
2157.14	90
2158.68	94.5
2160.22	97
2161.76	102
2163.29	101
2164.83	93.5
2166.37	91.5
2167.91	106
2169.45	103.5
2170.99	97
2172.52	72
2174.06	101.5
2175.6	89.5
2177.14	102
2178.67	97.5
2180.21	98
2181.75	92.5
2183.28	99.5
2184.82	116.5
2186.36	89
2187.89	91.5
2189.43	93.5
2190.97	93.5
2192.5	96
2194.04	113.5
2195.57	99.5
2197.11	103.5
2198.65	98.5
2200.18	85.5
2201.72	95
2203.25	96.5
2204.79	93.5
2206.32	101.5
2207.86	107.5
2209.39	97.5
2210.93	117
2212.46	115.5
2213.99	92
2215.53	104.5
2217.06	112
2218.6	101
2220.13	94.5
2221.67	108.5
2223.2	104.5
2224.73	111
2226.26	94
2227.8	103.5
2229.33	100.5
2230.87	105.5
2232.4	99.5
2233.93	115
2235.46	111.5
2237	94.5
2238.53	108
2240.06	107
2241.59	117
2243.12	112
2244.66	90
2246.19	103
2247.72	84.5
2249.25	115
2250.78	97.5
2252.32	90
2253.85	97
2255.38	112.5
2256.91	108.5
2258.44	98.5
2259.97	118
2261.5	109.5
2263.03	110.5
2264.56	99
2266.09	113.5
2267.62	99
2269.15	99
2270.68	110
2272.21	99.5
2273.74	100.5
2275.27	94.5
2276.8	115
2278.33	98
2279.86	103.5
2281.39	94.5
2282.92	108.5
2284.45	104
2285.98	100
2287.5	92
2289.03	101
2290.56	94.5
2292.09	112.5
2293.62	97.5
2295.15	104
2296.67	94
2298.2	105.5
2299.73	107.5
2301.25	100
2302.78	86
2304.31	99.5
2305.84	87.5
2307.36	101
2308.89	82
2310.42	87.5
2311.94	98.5
2313.47	90.5
2315	97
2316.52	100
2318.05	96.5
2319.58	117
2321.1	110.5
2322.63	96
2324.15	103.5
2325.68	113
2327.2	112
2328.73	113
2330.25	111
2331.78	117
2333.3	101
2334.83	105.5
2336.35	121
2337.88	105
2339.4	102.5
2340.93	106.5
2342.45	105
2343.97	107
2345.5	89.5
2347.02	90
2348.55	102
2350.07	95
2351.59	97
2353.12	115
2354.64	110.5
2356.16	101.5
2357.69	89
2359.21	84.5
2360.73	94
2362.25	99
2363.78	97
2365.3	94.5
2366.82	99.5
2368.34	95
2369.87	97.5
2371.39	92.5
2372.91	89
2374.43	97
2375.95	112.5
2377.47	114
2378.99	101.5
2380.52	100
2382.04	97.5
2383.56	112.5
2385.08	105.5
2386.6	111
2388.12	107
2389.64	105
2391.16	98.5
2392.68	95.5
2394.2	108
2395.72	100.5
2397.24	101
2398.76	103
2400.28	82.5
2401.8	102.5
2403.32	97
2404.84	112.5
2406.36	95
2407.88	96.5
2409.4	103
2410.91	97.5
2412.43	100
2413.95	108
2415.47	107
2416.99	103
2418.51	103
2420.02	94
2421.54	90.5
2423.06	94.5
2424.58	93
2426.09	94
2427.61	91.5
2429.13	104.5
2430.65	97
2432.16	103.5
2433.68	99.5
2435.2	99
2436.71	107.5
2438.23	85.5
2439.75	106
2441.26	96.5
2442.78	107
2444.3	97
2445.81	113
2447.33	87.5
2448.84	105.5
2450.36	102.5
2451.88	88.5
2453.39	106.5
2454.91	100
2456.42	94
2457.94	103
2459.45	93
2460.97	88
2462.48	104
2464	97
2465.51	116.5
2467.02	110
2468.54	103
2470.05	110.5
2471.57	89
2473.08	80
2474.59	96
2476.11	112.5
2477.62	100
2479.13	101.5
2480.65	104.5
2482.16	90
2483.67	102
2485.19	103.5
2486.7	103
2488.21	92
2489.72	112
2491.24	102
2492.75	100
2494.26	93.5
2495.77	98
2497.28	91
2498.8	103
2500.31	88.5
2501.82	98.5
2503.33	110
2504.84	107
2506.35	99.5
2507.86	95
2509.38	82.5
2510.89	100.5
2512.4	99
2513.91	101
2515.42	115
2516.93	102.5
2518.44	113
2519.95	106.5
2521.46	101.5
2522.97	101.5
2524.48	100
2525.99	112.5
2527.5	118
2529.01	96.5
2530.52	102
2532.03	111.5
2533.53	117.5
2535.04	93
2536.55	118.5
2538.06	106
2539.57	105
2541.08	106.5
2542.59	102
2544.09	102
2545.6	99
2547.11	108
2548.62	112.5
2550.13	106
2551.63	110.5
2553.14	110
2554.65	92.5
2556.16	103.5
2557.66	98.5
2559.17	113.5
2560.68	96
2562.18	104
2563.69	115
2565.2	103.5
2566.7	110
2568.21	100.5
2569.72	111.5
2571.22	115.5
2572.73	106
2574.23	114.5
2575.74	111.5
2577.25	108.5
2578.75	112
2580.26	111
2581.76	96.5
2583.27	111.5
2584.77	113
2586.28	108.5
2587.78	113.5
2589.29	104
2590.79	118.5
2592.29	115.5
2593.8	108.5
2595.3	107.5
2596.81	124
2598.31	110
2599.81	109
2601.32	113.5
2602.82	108.5
2604.33	109.5
2605.83	111.5
2607.33	103
2608.84	104.5
2610.34	114
2611.84	113.5
2613.34	114
2614.85	99
2616.35	115.5
2617.85	114
2619.35	116
2620.86	113
2622.36	98
2623.86	116
2625.36	90
2626.86	109.5
2628.36	122.5
2629.87	112.5
2631.37	105
2632.87	113
2634.37	110.5
2635.87	102.5
2637.37	118.5
2638.87	104.5
2640.37	100.5
2641.87	120.5
2643.38	109
2644.87	115
2646.37	122
2647.87	116.5
2649.37	120
2650.88	109.5
2652.37	110
2653.87	107.5
2655.37	115
2656.87	98.5
2658.37	107
2659.87	105.5
2661.37	108
2662.87	127
2664.37	109.5
2665.86	123
2667.36	114
2668.86	122
2670.36	106
2671.86	116
2673.36	101
2674.85	102.5
2676.35	114.5
2677.85	100.5
2679.35	112
2680.85	115.5
2682.34	122
2683.84	117
2685.34	102
2686.83	118.5
2688.33	110
2689.83	115.5
2691.32	109
2692.82	120
2694.32	121
2695.81	118
2697.31	98
2698.8	116
2700.3	114.5
2701.8	119
2703.29	112
2704.79	109
2706.28	122.5
2707.78	121.5
2709.27	110
2710.77	99
2712.26	115
2713.76	114
2715.25	110
2716.75	111.5
2718.24	117
2719.74	107
2721.23	104
2722.72	115
2724.22	121
2725.71	105.5
2727.21	117
2728.7	114.5
2730.19	117.5
2731.69	116
2733.18	116.5
2734.67	119.5
2736.17	115
2737.66	114
2739.15	131.5
2740.64	119.5
2742.14	125
2743.63	112
2745.12	115
2746.61	119
2748.11	120
2749.6	116
2751.09	111.5
2752.58	126
2754.07	116.5
2755.57	126.5
2757.06	125
2758.55	135.5
2760.04	127.5
2761.53	136.5
2763.02	126
2764.51	124.5
2766	117.5
2767.49	129
2768.98	115.5
2770.47	119
2771.96	117
2773.45	114.5
2774.94	135
2776.43	128.5
2777.92	113
2779.41	120.5
2780.9	115.5
2782.39	121.5
2783.88	104
2785.37	117
2786.86	102
2788.35	101.5
2789.84	118
2791.33	111
2792.81	121.5
2794.3	113.5
2795.79	106.5
2797.28	120.5
2798.77	135
2800.26	107.5
2801.74	116
2803.23	115.5
2804.72	120
2806.21	107.5
2807.69	125
2809.18	118.5
2810.67	111.5
2812.15	113
2813.64	115
2815.13	111.5
2816.62	111
2818.1	116
2819.59	115
2821.07	125
2822.56	99
2824.05	110
2825.53	124.5
2827.02	114.5
2828.5	99.5
2829.99	115.5
2831.48	129
2832.96	116.5
2834.45	120.5
2835.93	109
2837.42	109.5
2838.9	114
2840.39	109
2841.87	112
2843.36	120.5
2844.84	111.5
2846.32	110
2847.81	115.5
2849.29	121.5
2850.78	110.5
2852.26	108
2853.75	120.5
2855.23	121.5
2856.71	120
2858.2	116
2859.68	124.5
2861.16	133.5
2862.65	116
2864.13	128
2865.61	116
2867.09	115.5
2868.58	130.5
2870.06	126
2871.54	128.5
2873.02	136.5
2874.51	120
2875.99	126
2877.47	118
2878.95	122
2880.44	143.5
2881.91	127.5
2883.4	126.5
2884.88	129
2886.36	128.5
2887.84	129
2889.32	136.5
2890.8	118
2892.28	130
2893.76	126.5
2895.24	136
2896.73	126.5
2898.2	130
2899.69	125
2901.17	126
2902.65	138
2904.13	141.5
2905.6	128.5
2907.08	129
2908.56	135
2910.04	128.5
2911.52	122.5
2913	135.5
2914.48	126
2915.96	131
2917.44	142
2918.92	144.5
2920.4	142
2921.87	128.5
2923.35	141
2924.83	143
2926.31	132
2927.79	144.5
2929.27	136
2930.74	157.5
2932.22	156.5
2933.7	162
2935.18	143
2936.65	138.5
2938.13	155
2939.61	149
2941.08	171.5
2942.56	142
2944.04	160.5
2945.51	141
2946.99	134
2948.46	144.5
2949.94	145.5
2951.42	146.5
2952.89	145.5
2954.37	131.5
2955.85	153
2957.32	142.5
2958.8	139
2960.27	153.5
2961.75	143.5
2963.22	151.5
2964.7	147
2966.17	150
2967.65	149
2969.12	161.5
2970.6	143
2972.07	149
2973.54	146.5
2975.02	158.5
2976.49	167.5
2977.97	157
2979.44	157
2980.92	146.5
2982.39	150
2983.86	155.5
2985.34	145
2986.81	162
2988.28	172
2989.76	171
2991.23	154
2992.7	161.5
2994.17	159
2995.65	160
2997.12	165.5
2998.59	155.5
3000.07	158.5
3001.54	172
3003.01	154
3004.48	166.5
3005.95	162
3007.43	179.5
3008.9	164.5
3010.37	167.5
3011.84	175.5
3013.31	163
3014.78	175.5
3016.25	174
3017.72	154
3019.19	168
3020.67	167.5
3022.14	156
3023.6	187.5
3025.08	173
3026.55	178.5
3028.02	156.5
3029.49	171
3030.96	182
3032.43	191.5
3033.9	174
3035.37	166
3036.83	170
3038.31	186
3039.77	179
3041.24	180
3042.71	188.5
3044.18	182.5
3045.65	196
3047.12	189
3048.58	190.5
3050.06	208
3051.52	197.5
3052.99	206
3054.46	200
3055.93	205
3057.39	209
3058.86	203.5
3060.33	188
3061.8	226
3063.27	214.5
3064.73	200
3066.2	207
3067.67	204
3069.13	209.5
3070.6	224.5
3072.07	229
3073.53	223.5
3075	226.5
3076.47	230
3077.93	219
3079.4	241
3080.86	224
3082.33	219.5
3083.8	224.5
3085.26	242
3086.73	231
3088.19	240.5
3089.66	250.5
3091.12	258.5
3092.59	266.5
3094.05	255
3095.52	244.5
3096.98	234
3098.45	245
3099.91	257
3101.38	282.5
3102.84	280.5
3104.3	278.5
3105.77	292.5
3107.23	285
3108.69	280
3110.16	292.5
3111.62	278
3113.09	291.5
3114.55	288.5
3116.01	297.5
3117.48	281.5
3118.94	306.5
3120.4	317
3121.86	299
3123.33	310.5
3124.79	315.5
3126.25	304.5
3127.72	316.5
3129.18	307
3130.64	294
3132.1	327
3133.56	317
3135.02	314
3136.49	323.5
3137.95	340
3139.41	324.5
3140.87	368
3142.33	342.5
3143.79	348.5
3145.25	331.5
3146.71	356.5
3148.17	354.5
3149.63	350
3151.09	372.5
3152.56	378
3154.02	366.5
3155.48	373
3156.94	378
3158.4	390.5
3159.86	399
3161.31	420.5
3162.77	392.5
3164.23	381
3165.69	387.5
3167.15	384
3168.61	404
3170.07	406.5
3171.53	405
3172.99	406.5
3174.45	425.5
3175.91	423
3177.36	439
3178.82	447
3180.28	470.5
3181.74	448
3183.2	432
3184.66	431
3186.11	443.5
3187.57	448
3189.03	453
3190.48	442.5
3191.94	449
3193.4	473.5
3194.86	467
3196.31	466.5
3197.77	443
3199.23	458.5
3200.68	445.5
3202.14	480
3203.6	505.5
3205.05	463
3206.51	481
3207.96	481
3209.42	489
3210.88	474
3212.33	532
3213.79	474.5
3215.24	461.5
3216.7	479.5
3218.15	472.5
3219.61	477
3221.06	473.5
3222.52	479.5
3223.97	492
3225.43	498.5
3226.88	508.5
3228.34	504
3229.79	473.5
3231.25	471
3232.7	469.5
3234.15	505.5
3235.61	493
3237.06	494.5
3238.52	499.5
3239.97	500
3241.42	485.5
3242.88	485
3244.33	490
3245.78	493.5
3247.23	510
3248.69	498
3250.14	501.5
3251.59	506
3253.04	514.5
3254.5	486.5
3255.95	500
3257.4	512.5
3258.86	523
3260.31	525.5
3261.76	516
3263.21	519
3264.66	501
3266.11	497.5
3267.56	497.5
3269.02	510
3270.47	520.5
3271.92	512.5
3273.37	488.5
3274.82	518.5
3276.27	527
3277.72	515.5
3279.17	479.5
3280.62	506.5
3282.07	516
3283.52	513.5
3284.97	518.5
3286.42	509.5
3287.87	494
3289.32	523
3290.77	513.5
3292.22	517.5
3293.67	538
3295.12	515
3296.57	476.5
3298.02	496
3299.47	515.5
3300.91	511.5
3302.36	509
3303.81	525.5
3305.26	513
3306.71	537
3308.16	526
3309.61	523.5
3311.05	520
3312.5	526.5
3313.95	517
3315.4	522.5
3316.84	492
3318.29	515
3319.74	507.5
3321.18	520.5
3322.63	518.5
3324.08	549.5
3325.53	527.5
3326.97	515.5
3328.42	534
3329.87	696
3331.31	547.5
3332.76	530.5
3334.21	525
3335.65	523
3337.1	540.5
3338.54	517.5
3339.99	547
3341.43	535
3342.88	538.5
3344.32	545
3345.77	541
3347.21	521
3348.66	561
3350.11	535
3351.55	535.5
3353	525.5
3354.44	526.5
3355.88	563.5
3357.33	553.5
3358.77	546.5
3360.22	544
3361.66	510.5
3363.1	555
3364.55	531
3365.99	542
3367.44	546
3368.88	550.5
3370.32	588
3371.77	576.5
3373.21	562
3374.65	568.5
3376.09	548
3377.54	566.5
3378.98	543.5
3380.42	536.5
3381.86	568
3383.31	544.5
3384.75	583
3386.19	575.5
3387.63	559
3389.07	555.5
3390.52	550.5
3391.96	541
3393.4	552.5
3394.84	530
3396.28	548.5
3397.73	559.5
3399.17	551.5
3400.61	574
3402.05	559
3403.49	552
3404.93	577.5
3406.37	586
3407.81	547
3409.25	541.5
3410.69	591
3412.13	559
3413.57	583.5
3415.01	541
3416.45	541.5
3417.89	584.5
3419.33	605
3420.77	553.5
3422.21	566.5
3423.65	531
3425.09	551.5
3426.53	534
3427.96	533
3429.4	555
3430.84	538.5
3432.28	570
3433.72	524
3435.16	535
3436.59	531.5
3438.03	530
3439.47	539
3440.91	557
3442.35	542
3443.79	528.5
3445.22	535
3446.66	536.5
3448.1	545
3449.53	516
3450.97	571
3452.41	517
3453.85	539.5
3455.28	529.5
3456.72	512
3458.15	496
3459.59	527
3461.03	533
3462.46	538
3463.9	510
3465.34	509.5
3466.77	532.5
3468.21	512.5
3469.64	507.5
3471.08	494
3472.51	510
3473.95	516.5
3475.38	498.5
3476.82	489
3478.25	483.5
3479.69	467
3481.12	487.5
3482.56	464.5
3483.99	473.5
3485.43	448.5
3486.86	479.5
3488.3	496
3489.73	457.5
3491.16	513
3492.6	461.5
3494.03	447
3495.47	452
3496.9	437.5
3498.33	447.5
3499.77	461
3501.2	439.5
3502.63	445.5
3504.06	477
3505.5	423.5
3506.93	430.5
3508.36	433
3509.8	412
3511.23	449.5
3512.66	409.5
3514.09	391
3515.52	414.5
3516.96	424.5
3518.39	377
3519.82	394
3521.25	415
3522.68	402
3524.11	414.5
3525.55	376
3526.98	409
3528.41	379
3529.84	362.5
3531.27	382
3532.7	386
3534.13	385.5
3535.56	399
3536.99	372.5
3538.42	385
3539.85	372
3541.28	348
3542.71	342.5
3544.14	364.5
3545.57	392.5
3547	363
3548.43	354
3549.86	357.5
3551.29	355
3552.72	324
3554.15	337
3555.58	337.5
3557.01	326.5
3558.44	332
3559.86	338
3561.29	329.5
3562.72	322.5
3564.15	291
3565.58	321
3567.01	341.5
3568.43	329.5
3569.86	321
3571.29	313
3572.71	313
3574.14	332.5
3575.57	294.5
3577	318.5
3578.42	296.5
3579.85	291
3581.28	312
3582.71	318.5
3584.13	315
3585.56	302
3586.99	317
3588.41	275
3589.84	292.5
3591.26	291
3592.69	294
3594.12	273.5
3595.54	275.5
3596.97	279.5
3598.39	271
3599.82	274.5
3601.25	274.5
3602.67	267.5
3604.09	276
3605.52	260
3606.94	267.5
3608.37	263
3609.8	273.5
3611.22	260.5
3612.65	252.5
3614.07	254
3615.49	269
3616.92	255
3618.34	265
3619.77	262.5
3621.19	242
3622.61	229
3624.04	238.5
3625.46	237.5
3626.88	243
3628.31	235
3629.73	235.5
3631.15	223.5
3632.58	227
3634	237
3635.42	221
3636.84	220.5
3638.27	229
3639.69	220.5
3641.11	233
3642.53	213.5
3643.95	203.5
3645.38	212
3646.8	224.5
3648.22	220
3649.64	195
3651.06	199.5
3652.49	203.5
3653.91	187.5
3655.33	189.5
3656.75	188
3658.17	184.5
3659.59	192
3661.01	183
3662.43	164.5
3663.85	169.5
3665.27	158.5
3666.69	170
3668.11	161
3669.53	165
3670.95	159
3672.37	159
3673.8	171.5
3675.21	164.5
3676.63	157
3678.05	144.5
3679.47	156
3680.89	151.5
3682.31	142.5
3683.73	136
3685.15	130.5
3686.57	132
3687.99	128.5
3689.4	127.5
3690.82	135
3692.24	111
3693.66	132
3695.08	118.5
3696.5	111
3697.91	112
3699.33	113.5
3700.75	119.5
3702.17	106
3703.58	104.5
3705	102
3706.42	109
3707.84	109
3709.25	89
3710.67	88.5
3712.09	86
3713.5	106
3714.92	97
3716.34	114.5
3717.75	93.5
3719.17	92
3720.59	91.5
3722	92.5
3723.42	88.5
3724.83	77.5
3726.25	92.5
3727.66	98
3729.08	83
3730.5	90.5
3731.91	82.5
3733.33	79.5
3734.74	81.5
3736.16	94.5
3737.57	77.5
3738.99	91
3740.4	90.5
3741.81	77.5
3743.23	85
3744.64	78.5
3746.06	78
3747.47	80.5
3748.89	76.5
3750.3	87
3751.71	90.5
3753.13	68
3754.54	76
3755.95	63.5
3757.37	86
3758.78	74
3760.19	75
3761.61	88
3763.02	77
3764.43	81
3765.84	64.5
3767.26	85
3768.67	82
3770.08	83.5
3771.49	86
3772.91	77
3774.32	91.5
3775.73	81.5
3777.14	90.5
3778.55	79
3779.96	76
3781.38	81.5
3782.79	73
3784.2	72
3785.61	74.5
3787.02	82
3788.43	74
3789.84	62
3791.26	74
3792.67	79.5
3794.07	74.5
3795.49	77
3796.9	77
3798.31	81.5
3799.72	85
3801.13	74.5
3802.53	71
3803.95	75.5
3805.35	69.5
3806.76	67
3808.17	65.5
3809.58	75.5
3810.99	70.5
3812.4	63
3813.81	82
3815.22	59
3816.63	75.5
3818.04	80
3819.44	71
3820.85	74.5
3822.26	71
3823.67	74.5
3825.08	82
3826.49	76
3827.89	76
3829.3	78
3830.71	71
3832.12	64
3833.52	81.5
3834.93	71
3836.34	59.5
3837.75	70
3839.15	73.5
3840.56	62
3841.97	74.5
3843.37	68.5
3844.78	69
3846.19	75.5
3847.59	71
3849	64.5
3850.41	72.5
